aX,aY,aZ,gX,gY,gZ
2.744,0.049,-0.478,109.924,87.646,18.738
3.022,0.440,-1.452,135.986,48.157,15.442
2.798,0.512,-1.331,103.516,-99.670,-42.114
1.667,0.721,-0.200,77.393,-167.297,-80.444
0.445,-0.019,0.694,30.823,-210.693,-150.940
0.143,-1.164,0.782,9.399,-193.359,-127.930
-0.532,-1.810,0.840,27.771,-181.763,-40.405
-1.009,-1.193,0.632,110.901,-158.142,79.773
-1.539,-0.967,1.130,97.534,-186.218,75.989
-1.655,-0.856,1.467,-17.761,-218.445,57.922
-1.613,-0.528,1.959,-33.264,-192.139,59.082
-1.509,-0.556,1.710,14.832,-84.351,86.792
-1.536,0.199,1.341,40.161,-53.650,98.999
-1.443,0.362,1.512,42.847,-16.479,56.458
-0.955,0.017,1.502,28.992,8.362,24.109
-0.623,-0.238,1.287,19.226,56.458,-14.343
-0.093,-0.530,0.720,23.010,70.862,-20.142
0.062,-0.637,0.517,16.968,61.768,-18.433
0.159,-0.633,0.535,6.836,46.143,-14.099
0.192,-0.545,0.568,-1.221,35.889,-9.583
0.260,-0.434,0.527,1.709,33.508,-4.333
0.405,-0.413,0.348,10.559,30.579,-5.676
0.440,-0.437,0.419,18.250,5.737,-10.498
0.514,-0.688,0.737,13.672,-5.005,-11.536
0.526,-0.792,0.850,3.113,-12.024,3.906
0.425,-0.653,0.938,-0.183,-11.658,15.625
0.347,-0.480,0.951,-3.723,-12.878,21.912
0.258,-0.314,0.950,-3.174,-12.573,17.944
0.230,-0.283,0.991,-1.038,-10.010,10.010
0.240,-0.353,1.031,-0.793,-5.676,6.409
0.281,-0.418,0.987,3.723,3.723,5.615
0.343,-0.487,0.860,6.226,3.662,7.751
0.330,-0.460,0.901,5.798,-1.160,10.498
0.300,-0.413,0.978,-1.953,-7.996,10.925
0.241,-0.401,1.036,-4.883,-6.775,8.911
0.213,-0.386,1.051,-7.019,-2.014,6.897
0.199,-0.317,1.024,-6.775,1.404,6.104
0.213,-0.298,0.994,-3.662,9.033,3.052
0.261,-0.319,0.917,-0.427,11.230,1.160
0.288,-0.342,0.930,3.540,10.193,-2.686
0.318,-0.426,0.920,2.258,11.047,-4.150
0.322,-0.465,0.866,0.916,10.071,-1.343
0.308,-0.380,0.907,2.991,8.057,1.526
0.307,-0.360,0.896,4.395,9.216,2.014
0.310,-0.376,0.847,-0.671,7.812,-0.854
0.320,-0.392,0.875,-2.808,4.395,-0.977
0.317,-0.379,0.860,-1.709,5.432,0.488
0.293,-0.378,0.852,-1.587,5.310,0.671
0.273,-0.364,0.872,-1.099,5.249,0.549
0.259,-0.349,0.879,0.427,7.019,0.061
0.252,-0.338,0.872,2.197,8.057,-1.709
0.260,-0.373,0.891,1.892,8.362,-3.235
0.278,-0.401,0.894,0.244,10.376,-4.395
0.343,-0.472,0.812,-0.671,11.108,-4.395
0.359,-0.473,0.796,-1.648,8.667,-2.563
0.337,-0.420,0.853,-4.883,1.343,2.869
0.325,-0.411,0.866,-5.737,0.549,3.967
0.317,-0.379,0.882,-1.648,3.052,5.188
0.320,-0.376,0.858,1.160,5.615,3.967
0.318,-0.387,0.854,1.221,5.371,1.343
0.301,-0.406,0.876,-0.671,3.723,0.488
0.298,-0.407,0.889,-3.479,1.587,-1.221
0.329,-0.478,0.883,-3.784,1.892,-0.854
0.331,-0.477,0.891,-1.465,2.197,5.798
0.311,-0.433,0.914,-0.122,3.418,8.240
0.298,-0.379,0.886,0.488,4.883,9.277
0.298,-0.343,0.863,0.488,3.662,4.333
0.297,-0.344,0.835,-0.244,3.296,1.587
0.292,-0.336,0.834,-2.930,0.610,-1.343
0.302,-0.378,0.867,-3.906,0.610,-2.502
0.309,-0.391,0.857,-1.526,2.930,-1.099
0.311,-0.379,0.859,-0.244,2.747,-0.610
0.312,-0.376,0.861,-3.357,-0.427,-2.197
0.327,-0.399,0.893,-3.601,-0.671,-2.502
0.335,-0.401,0.873,0.366,3.174,-0.977
0.332,-0.395,0.840,0.793,3.296,-0.610
0.323,-0.384,0.843,-2.380,0.610,-0.671
0.313,-0.381,0.870,-3.235,-0.427,-1.099
0.311,-0.382,0.875,-3.052,-0.671,-1.465
0.313,-0.399,0.880,-3.357,-1.038,-1.648
0.313,-0.408,0.878,-3.784,-0.793,-0.732
0.309,-0.384,0.901,-3.174,-0.488,2.625
0.307,-0.365,0.906,-3.418,0.977,1.831
0.313,-0.376,0.903,-4.211,1.099,-1.526
0.337,-0.423,0.909,-4.944,0.732,-2.869
0.346,-0.429,0.892,-5.798,1.221,-1.709
0.339,-0.398,0.865,-5.066,0.793,-0.244
0.332,-0.382,0.867,-1.831,0.977,1.404
0.320,-0.368,0.840,-1.526,1.404,0.916
0.318,-0.386,0.845,-1.831,-1.648,-0.793
0.311,-0.391,0.889,-0.732,-1.953,-0.366
0.304,-0.368,0.917,0.732,-0.183,-0.793
0.306,-0.384,0.898,0.000,1.404,-2.380
0.313,-0.406,0.885,-1.343,1.404,-3.601
0.328,-0.443,0.890,-3.845,-0.549,-3.113
0.323,-0.405,0.895,-4.150,-0.610,-0.671
0.322,-0.370,0.892,-3.479,1.648,0.610
0.326,-0.360,0.835,-3.052,2.441,0.244
0.312,-0.342,0.846,-1.709,0.061,-0.854
0.310,-0.373,0.886,-1.160,-0.366,-3.113
0.332,-0.431,0.878,1.953,1.282,-2.808
0.333,-0.401,0.866,3.357,1.282,0.183
0.320,-0.376,0.873,0.488,-0.977,0.671
0.308,-0.385,0.903,-1.831,-2.197,-0.549
0.309,-0.416,0.909,-4.333,-2.014,0.427
0.301,-0.381,0.922,-4.028,-1.587,2.380
0.302,-0.349,0.915,-1.343,2.197,1.648
0.329,-0.366,0.859,-1.709,2.625,-0.366
0.335,-0.383,0.861,-2.258,1.709,-1.221
0.326,-0.365,0.879,-0.549,0.793,-0.610
0.309,-0.355,0.881,0.244,0.854,-2.136
0.311,-0.377,0.894,0.061,0.488,-4.395
0.318,-0.415,0.907,0.244,2.014,-3.723
0.320,-0.433,0.887,0.671,4.211,0.488
0.292,-0.376,0.905,-1.099,3.296,2.014
0.281,-0.349,0.913,-4.639,2.197,-0.610
0.300,-0.366,0.908,-3.235,3.967,-2.625
0.312,-0.381,0.866,-0.610,6.287,-3.296
0.360,-0.409,0.835,0.671,6.104,-2.808

2.228,0.455,0.970,146.606,-41.382,-42.664
3.124,0.628,0.607,220.154,-69.519,-35.400
4.000,1.117,0.117,228.577,-89.111,-52.917
4.000,1.251,0.190,53.955,-70.984,-132.202
3.697,1.226,0.213,-52.185,-44.067,-152.893
3.144,1.573,-0.097,-163.147,-33.630,-140.259
0.368,2.036,-1.076,-200.806,-65.613,-137.207
-2.294,1.178,-0.529,-246.948,-215.332,-81.604
-4.000,-1.524,3.600,-200.867,-284.241,-14.587
-4.000,-2.970,4.000,-84.595,-271.729,16.907
-3.762,-3.443,3.460,233.215,-65.247,19.958
-2.527,-1.365,1.267,290.710,64.270,74.036
2.066,2.776,-2.470,164.856,125.732,111.206
2.223,2.823,-2.048,67.810,55.725,56.885
1.033,1.843,-0.743,-9.644,-68.604,-72.571
-0.981,-0.341,1.047,-10.620,-65.613,-99.365
-1.017,-0.649,1.138,-12.024,-13.184,-73.181
-0.488,-0.431,0.875,-13.367,-0.610,-56.763
-0.375,-0.401,0.867,-19.592,-0.122,-43.091
-0.441,-0.606,0.881,-6.592,-4.639,-33.630
-0.563,-0.784,0.902,22.644,-10.315,0.488
-0.572,-0.888,0.895,15.930,-5.188,17.761
-0.408,-0.730,0.819,-9.460,10.010,47.546
0.112,-0.048,0.615,-21.912,14.343,58.594
0.240,0.179,0.571,-54.443,8.240,39.673
0.091,-0.139,0.894,-64.941,1.892,25.635
-0.038,-0.323,0.984,-66.528,1.648,33.264
-0.143,-0.427,0.965,-60.730,0.488,39.185
-0.149,-0.376,0.978,-56.702,-2.808,43.518
-0.224,-0.330,1.038,-40.039,-11.292,35.950
-0.253,-0.357,1.138,-16.846,-18.555,26.794
-0.159,-0.235,1.252,12.939,-18.616,28.015
-0.067,-0.097,1.240,9.338,-10.254,21.179
-0.132,-0.127,1.199,10.071,1.221,7.874
-0.150,-0.166,1.046,20.691,3.601,4.456
-0.119,-0.184,0.986,38.452,-0.305,5.005
-0.089,-0.146,0.874,37.048,-1.648,4.822
-0.111,-0.187,0.880,81.848,-7.324,0.305
-0.181,-0.136,0.731,197.266,-8.118,-7.324
-0.276,0.271,0.010,936.706,-39.246,-103.088
-0.934,0.570,-0.172,1187.561,-179.260,-276.367
-0.583,-1.733,2.002,96.863,-328.735,-434.387
-0.282,-1.843,1.429,-198.425,-105.469,-176.392
-0.461,-0.577,0.412,-1.465,17.822,70.435
-0.428,-0.396,0.657,49.500,-29.968,35.278
-0.343,-0.543,0.759,50.720,-48.889,4.883
-0.373,-0.625,0.807,34.790,-40.527,1.282
-0.432,-0.611,0.670,52.124,-26.245,7.446
-0.442,-0.581,0.610,128.113,-28.564,2.686
-0.381,-0.858,0.596,147.400,-32.471,-0.671
-0.432,-0.923,0.964,-12.085,2.258,41.992
-0.554,-0.253,0.495,-122.498,49.255,45.044
-0.474,-0.283,0.223,-142.639,23.926,-48.401
-0.394,-0.811,0.846,-155.151,1.404,-61.829
-0.317,-0.567,0.895,-229.248,22.217,-25.696
-0.339,-0.490,0.716,-181.030,23.987,-19.043
-0.377,-0.480,0.740,-32.043,7.935,-2.625
-0.429,-0.560,0.698,-3.052,7.263,-0.122
-0.438,-0.618,0.617,-27.161,8.789,1.526
-0.327,-0.480,0.685,-39.551,8.362,2.686
-0.303,-0.456,0.766,-56.580,13.123,0.244
-0.401,-0.557,0.729,-97.900,30.884,-3.174
-0.421,-0.564,0.806,-108.887,31.555,1.099
-0.417,-0.546,0.900,-173.035,42.358,11.902
-0.380,-0.446,0.713,-180.603,45.959,13.794
-0.349,-0.416,0.797,-112.854,28.503,9.827
-0.338,-0.410,0.941,-111.206,31.555,9.521
-0.352,-0.396,0.943,-119.019,38.330,14.771
-0.378,-0.393,0.969,-124.451,41.321,17.700
-0.384,-0.393,0.973,-145.630,46.570,28.931
-0.312,-0.268,0.974,-149.719,47.607,34.424
-0.273,-0.208,0.888,-123.779,45.349,31.555
-0.234,-0.157,0.829,-83.191,33.142,24.475
-0.242,-0.164,0.920,-30.334,11.902,12.878
-0.305,-0.190,1.035,-26.062,9.827,10.864
-0.310,-0.199,1.052,-41.809,17.334,11.536
-0.249,-0.159,0.947,-51.575,20.996,12.939
-0.222,-0.115,0.921,-59.998,22.156,13.184
-0.238,-0.115,0.894,-65.247,20.386,6.897
-0.295,-0.172,0.973,-51.453,14.587,5.005
-0.267,-0.137,0.996,-18.921,7.019,8.606
-0.169,-0.023,0.898,-4.639,4.761,8.057
-0.179,-0.039,0.898,10.254,-3.784,1.038
-0.261,-0.113,1.011,10.986,-5.676,-0.793
-0.288,-0.129,1.016,2.930,-0.916,-0.610
-0.290,-0.149,0.943,5.005,-0.732,-0.183
-0.285,-0.152,0.953,5.371,-3.784,-0.610
-0.236,-0.113,0.971,1.526,-2.991,-0.732
-0.227,-0.084,0.977,3.296,-1.343,-0.244
-0.252,-0.101,0.992,2.502,0.183,-0.916
-0.251,-0.123,0.985,0.488,1.221,-0.610
-0.265,-0.166,0.956,2.258,0.977,0.061
-0.289,-0.192,0.956,3.723,0.305,0.305
-0.282,-0.200,0.961,6.104,0.061,1.648
-0.253,-0.169,0.947,6.409,0.366,2.930
-0.236,-0.139,0.953,1.160,-0.610,2.197
-0.258,-0.153,0.979,-3.174,0.305,0.916
-0.263,-0.156,0.965,0.244,2.869,0.549
-0.266,-0.186,0.981,3.967,2.502,0.793
-0.265,-0.182,0.995,4.089,2.930,2.991
-0.268,-0.170,0.996,3.235,3.662,4.395
-0.259,-0.146,0.979,0.549,6.226,5.798
-0.266,-0.145,0.929,-0.549,6.409,5.371
-0.288,-0.172,0.939,-0.427,5.371,4.700
-0.284,-0.182,0.950,-1.526,5.127,4.944
-0.257,-0.149,0.956,-1.282,5.737,5.432
-0.240,-0.125,0.991,5.920,6.592,4.822
-0.241,-0.107,1.005,11.902,8.118,4.456
-0.255,-0.119,1.003,10.742,12.207,0.610
-0.257,-0.179,0.928,3.418,12.939,0.122
-0.226,-0.149,0.925,-4.150,8.240,4.028
-0.202,-0.094,0.975,-5.188,6.775,3.662
-0.196,-0.084,0.982,0.549,6.226,1.099
-0.235,-0.118,1.014,6.409,4.883,0.122
-0.266,-0.164,1.017,12.390,7.141,-0.610
-0.271,-0.201,0.978,12.085,8.728,-0.305
-0.256,-0.204,0.958,9.460,9.827,-0.549
-0.216,-0.185,0.931,3.052,9.277,0.366
-0.215,-0.179,0.926,0.427,7.935,1.099

1.525,0.174,1.487,147.949,19.714,36.743
2.288,0.264,1.535,538.452,37.354,56.213
3.996,0.800,1.005,713.379,34.058,62.927
4.000,1.541,0.570,416.382,-18.738,9.094
4.000,2.591,0.354,59.265,-22.705,-81.726
3.911,2.740,0.311,-430.847,-4.700,-224.487
1.842,2.710,-1.498,-576.599,-27.588,-216.858
-0.781,2.210,-2.307,-866.211,-236.816,-101.257
-4.000,0.730,1.100,-887.817,-390.564,-65.186
-4.000,-0.963,3.766,-493.408,-461.426,-110.657
-3.937,-3.096,4.000,488.770,-206.421,-105.041
-3.684,-3.028,3.112,560.547,-38.757,-22.339
-0.134,0.222,-1.048,345.642,167.053,119.080
1.281,1.418,-1.624,152.527,149.231,128.235
1.143,1.460,-0.791,-148.071,25.879,45.959
-0.310,0.568,0.982,-190.124,13.367,31.067
-0.501,0.308,0.937,-205.139,45.105,40.527
-0.394,-0.108,0.524,-180.847,44.250,38.574
-0.363,-0.296,0.495,-47.852,10.620,12.573
-0.401,-0.551,0.749,17.029,-9.277,1.953
-0.314,-0.352,0.935,47.241,-22.522,5.615
0.004,0.202,0.985,28.015,-14.526,3.235
0.022,0.262,0.913,-13.550,-6.958,-10.742
-0.123,0.100,1.008,-23.193,-5.981,-17.395
-0.151,0.029,1.015,-28.809,5.432,-21.851
0.018,0.148,0.764,-18.860,5.432,-21.301
0.047,0.142,0.774,-6.592,-3.967,-25.146
-0.039,0.042,0.876,2.075,-21.729,-33.264
-0.196,-0.103,1.006,14.099,-24.658,-32.532
-0.209,-0.112,1.049,35.339,-26.733,-28.870
-0.181,-0.105,1.075,39.001,-24.658,-27.466
-0.183,-0.082,1.109,36.499,-20.264,-24.475
-0.271,-0.053,1.221,23.132,-16.602,-22.095
-0.262,0.018,1.219,6.165,-7.080,-14.893
-0.222,0.057,1.161,4.089,-3.967,-13.184
-0.203,0.067,1.108,-1.892,1.831,-7.812
-0.179,0.111,0.975,1.892,1.526,-6.958
-0.200,0.085,0.962,20.691,-4.700,-9.705
-0.245,-0.036,0.981,27.527,-5.859,-10.498
-0.215,-0.071,0.936,38.574,-2.991,-10.986
-0.142,-0.103,0.849,39.429,-1.953,-11.292
-0.136,-0.094,0.831,30.823,-2.441,-10.681
-0.107,0.002,0.908,10.193,-7.935,-9.766
-0.130,-0.001,0.990,1.709,-9.705,-10.193
-0.189,-0.011,1.093,-5.432,-6.409,-6.287
-0.182,0.001,1.068,-5.432,-2.808,-3.662
-0.172,0.013,1.027,-10.254,-0.427,-0.366
-0.205,-0.016,1.034,-10.254,-2.014,0.488
-0.227,-0.033,1.049,-4.578,-2.075,3.235
-0.226,-0.062,1.008,2.441,-1.343,3.540
-0.209,-0.073,0.994,13.306,-0.732,5.066
-0.147,-0.015,0.897,13.367,-0.671,5.920
-0.160,-0.002,0.916,6.409,-4.150,3.174
-0.184,0.025,1.001,3.113,-4.028,2.136
-0.169,0.042,1.009,0.061,0.122,0.854
-0.145,0.027,0.923,2.625,1.038,-0.305
-0.167,-0.002,0.933,6.836,-3.052,-3.357
-0.208,-0.024,0.984,4.822,-3.540,-3.235
-0.207,-0.005,0.984,0.610,-2.930,-0.793
-0.204,-0.013,0.970,3.113,-4.211,-0.671
-0.186,-0.011,0.994,7.019,-3.540,-0.427
-0.117,0.031,0.940,4.639,-1.404,-0.488
-0.108,0.063,0.932,2.014,-1.465,-0.549
-0.203,0.002,1.029,-1.831,-5.127,-3.845
-0.231,-0.034,1.033,-0.366,-4.883,-3.784
-0.232,-0.048,1.006,4.944,-3.479,-2.380
-0.242,-0.105,1.008,4.517,-3.235,-3.174
-0.237,-0.100,1.005,4.700,-2.136,-1.831
-0.209,-0.052,1.011,5.554,-1.953,-1.160
-0.204,-0.042,1.022,5.066,-1.038,-0.549
-0.193,-0.022,1.006,4.883,-0.183,-0.549
-0.197,-0.035,0.999,6.165,-1.282,-1.160
-0.188,-0.043,1.002,5.249,-1.282,-0.793
-0.180,-0.043,0.977,1.404,-0.854,-0.977
-0.203,-0.073,1.003,-0.854,-1.099,-2.258
-0.207,-0.079,1.015,-1.526,0.732,-2.258
-0.187,-0.037,1.005,0.305,0.549,-2.014
-0.203,-0.054,1.025,3.052,-1.282,-3.113
-0.219,-0.093,1.019,6.226,-1.160,-2.258
-0.211,-0.088,1.011,12.329,-1.404,-0.549
-0.182,-0.056,1.006,11.963,-0.610,-0.671
-0.180,-0.049,0.995,7.202,0.183,-1.099
-0.197,-0.057,1.024,5.188,0.183,-0.671
-0.190,-0.054,1.011,3.601,2.625,0.549
-0.169,-0.055,0.943,3.662,2.563,0.305
-0.178,-0.065,0.942,4.211,1.038,-0.488
-0.185,-0.061,0.964,5.066,-1.953,-1.587
-0.185,-0.056,0.972,3.662,-2.563,-1.831
-0.198,-0.063,0.983,-1.160,-3.113,-2.258
-0.233,-0.104,1.015,-2.625,-2.747,-2.014
-0.230,-0.102,1.007,-4.089,-0.244,0.366
-0.206,-0.069,1.009,-3.418,0.061,1.221
-0.192,-0.051,1.008,-2.808,1.465,2.075
-0.183,-0.042,0.997,-2.319,1.282,2.197
-0.175,-0.034,0.974,-0.793,1.160,1.038
-0.174,-0.053,0.945,0.916,-0.610,-0.183
-0.184,-0.067,0.953,3.845,-3.906,-0.488
-0.171,-0.041,0.974,5.127,-4.395,0.427
-0.162,-0.027,0.977,1.587,-3.906,0.000
-0.196,-0.067,0.995,-1.282,-4.150,-0.916
-0.227,-0.095,1.021,-2.686,-2.930,-0.366
-0.254,-0.127,1.023,-1.770,-1.465,0.916
-0.239,-0.115,1.014,-2.441,1.404,3.906
-0.150,-0.014,0.955,-1.953,2.014,4.333
-0.116,0.028,0.938,-0.244,-1.038,-0.732
-0.175,-0.017,0.983,-1.038,-3.296,-3.723
-0.217,-0.046,1.015,0.671,-5.554,-3.357
-0.251,-0.095,1.021,1.770,-5.005,-1.892
-0.239,-0.096,1.014,3.357,-3.113,1.343
-0.206,-0.070,0.989,1.160,-1.770,1.160
-0.199,-0.067,0.971,-1.465,-0.793,-0.244
-0.202,-0.065,0.983,0.000,-2.686,-1.526
-0.214,-0.071,1.007,1.404,-3.540,-0.916
-0.216,-0.069,1.019,-0.488,-1.160,0.610
-0.204,-0.053,1.001,-1.221,-0.427,0.305
-0.210,-0.052,1.011,-0.122,-0.671,-1.465
-0.215,-0.071,1.004,2.563,-0.610,-1.953
-0.214,-0.072,1.008,6.042,-0.244,-0.305
-0.202,-0.059,0.995,5.554,0.000,0.427

1.444,0.330,1.339,96.069,31.677,31.250
1.887,0.491,1.310,141.235,62.988,29.968
2.727,0.855,0.835,157.654,78.674,19.531
3.333,0.920,0.552,213.501,71.350,-10.315
4.000,1.438,-0.477,171.509,41.443,-17.334
3.953,1.699,-0.935,-82.764,-61.768,-75.073
1.721,1.106,-0.485,-217.651,-109.741,-113.892
0.052,0.893,-0.028,-331.055,-162.476,-78.979
-2.402,1.409,0.556,-276.611,-180.237,-54.749
-3.246,1.340,0.602,-155.396,-197.144,-75.378
-4.000,-0.212,2.573,180.969,-292.419,-148.743
-4.000,-1.305,3.450,330.627,-287.781,-144.043
-4.000,-2.288,3.477,415.100,-94.177,-46.509
-2.727,-2.948,0.600,337.830,23.132,15.137
-1.460,-2.314,-0.747,4.700,83.984,76.538
-0.063,-0.353,-0.640,-153.198,49.744,68.420
-0.258,0.233,0.219,-248.779,-16.235,34.363
-0.810,0.459,1.576,-192.017,-15.320,27.100
-0.699,0.282,1.379,-39.124,28.442,22.644
-0.200,-0.172,0.547,5.127,31.067,21.423
-0.143,-0.391,0.459,15.259,6.775,17.151
-0.111,-0.341,0.589,0.122,-0.427,13.123
-0.209,-0.220,0.832,-45.837,-3.052,4.272
-0.300,0.045,1.149,-51.453,3.235,5.432
-0.209,0.145,1.098,-44.434,10.803,7.324
0.023,0.245,0.819,-35.828,18.372,5.005
0.068,0.292,0.723,-33.264,15.015,1.038
0.025,0.276,0.725,-18.433,-2.625,-14.648
-0.123,0.111,0.824,-2.380,-9.949,-20.752
-0.163,-0.013,0.867,22.705,-17.212,-25.635
-0.231,-0.214,0.952,22.522,-17.700,-23.376
-0.243,-0.216,0.960,12.756,-15.686,-14.709
-0.234,-0.137,1.008,8.484,-16.052,-12.451
-0.215,-0.077,1.026,1.221,-14.954,-10.254
-0.221,-0.032,1.088,-1.221,-14.587,-10.986
-0.234,-0.028,1.099,-3.113,-10.498,-11.353
-0.229,0.024,1.139,1.038,-9.521,-11.536
-0.200,0.061,1.128,7.690,-3.540,-11.841
-0.152,0.075,1.015,11.719,-2.075,-12.939
-0.163,0.037,0.996,11.292,-2.258,-15.381
-0.193,-0.030,0.957,7.812,-1.587,-15.015
-0.196,-0.063,0.926,5.493,-0.977,-14.771
-0.192,-0.120,0.881,4.456,-2.441,-13.550
-0.188,-0.120,0.887,5.005,-4.578,-12.268
-0.197,-0.126,0.945,-1.343,-6.897,-9.888
-0.130,-0.038,1.013,-1.953,-5.127,-7.629
-0.078,0.010,0.995,-1.526,-2.502,-4.517
-0.143,0.010,1.045,-3.723,-2.930,-4.395
-0.208,-0.039,1.087,-2.136,-0.610,-4.944
-0.227,-0.102,1.053,2.258,2.014,-3.418
-0.179,-0.083,1.003,11.902,4.272,0.488
-0.104,-0.021,0.880,12.756,3.174,0.916
-0.124,-0.027,0.888,11.719,-3.296,-3.174
-0.206,-0.106,0.940,11.414,-4.883,-4.517
-0.224,-0.127,0.942,11.230,-4.028,-3.601
-0.186,-0.098,0.907,10.559,-3.418,-2.014
-0.173,-0.053,0.905,4.456,-4.456,-0.061
-0.202,-0.052,0.964,2.563,-4.883,-1.099
-0.216,-0.088,0.971,6.836,-4.944,-0.549
-0.179,-0.057,0.985,7.202,-4.150,1.221
-0.129,0.007,0.935,1.099,-1.038,0.183
-0.131,0.006,0.952,0.183,-3.540,-2.869
-0.162,-0.038,0.985,1.099,-6.165,-4.822
-0.170,-0.088,0.957,7.080,-8.423,-2.991
-0.196,-0.098,0.999,7.507,-9.766,-2.502
-0.243,-0.130,1.055,-0.732,-5.432,-6.775
-0.302,-0.221,1.075,0.977,-2.686,-6.348
-0.253,-0.179,1.030,7.690,0.793,0.366
-0.122,-0.053,0.864,8.301,-1.099,1.587
-0.140,-0.061,0.884,9.155,-13.489,-0.977
-0.268,-0.151,1.033,11.108,-17.029,-1.648
-0.291,-0.164,1.106,3.723,-9.583,-2.747
-0.280,-0.178,1.059,-4.089,-2.197,-3.174
-0.279,-0.194,1.024,-4.150,3.113,-1.038
-0.221,-0.164,0.965,-0.305,3.296,1.160
-0.171,-0.117,0.916,0.977,1.770,2.686
-0.205,-0.119,0.964,0.977,-1.831,1.343
-0.228,-0.118,1.020,4.150,-2.625,1.465
-0.214,-0.112,1.005,7.019,-1.892,1.160
-0.235,-0.158,1.014,7.080,-1.953,-1.953
-0.244,-0.167,1.034,6.226,-0.916,-0.671
-0.220,-0.124,1.003,0.122,1.404,1.892
-0.241,-0.126,1.053,-3.601,0.977,2.563
-0.225,-0.100,1.034,-5.066,2.380,4.272
-0.191,-0.067,0.987,-0.671,3.052,4.700
-0.207,-0.099,0.993,-0.854,1.343,2.441
-0.229,-0.121,1.000,-0.916,0.732,0.916
-0.230,-0.126,0.998,-0.610,1.221,1.160
-0.205,-0.104,0.978,-1.038,1.953,1.709
-0.194,-0.083,0.972,-2.136,1.099,1.038
-0.196,-0.086,0.968,-3.418,0.000,-0.183
-0.216,-0.108,0.976,-3.662,-0.549,-0.183
-0.215,-0.095,0.982,-3.174,-0.427,0.732
-0.186,-0.038,0.965,-3.357,-0.122,0.366
-0.190,-0.049,0.977,-5.005,-1.160,-2.686
-0.238,-0.123,0.991,-5.005,-0.549,-3.235
-0.231,-0.134,0.968,-3.845,1.587,-1.282
-0.202,-0.110,0.944,-5.188,1.099,-1.038
-0.198,-0.094,0.955,-4.211,-0.732,-0.916
-0.183,-0.060,0.960,-0.977,-1.770,-1.221
-0.190,-0.072,0.960,3.601,-4.883,-2.869
-0.239,-0.132,1.004,3.601,-5.432,-2.869
-0.246,-0.149,1.006,0.122,-2.075,-0.916
-0.216,-0.123,0.991,-2.441,-0.549,0.000
-0.213,-0.113,0.986,-5.310,0.061,0.244
-0.222,-0.111,1.009,-4.150,-0.061,0.427
-0.200,-0.100,0.976,-0.916,0.854,1.465
-0.179,-0.068,0.951,-0.549,-0.549,0.916
-0.196,-0.076,0.965,-0.732,-1.953,-0.427
-0.233,-0.112,0.999,3.174,-3.906,-1.282
-0.238,-0.117,1.000,4.211,-3.784,-0.366
-0.234,-0.096,0.993,1.038,-2.014,0.671
-0.233,-0.099,0.984,-0.916,-1.099,0.061
-0.226,-0.091,0.983,3.052,-1.526,0.854
-0.225,-0.086,0.987,4.211,-1.648,0.793
-0.233,-0.096,0.993,1.404,-1.465,0.305
-0.228,-0.097,0.994,-0.916,-0.977,0.122
-0.227,-0.100,0.987,-2.930,-0.427,-0.977
-0.220,-0.098,0.968,-2.380,-0.427,-1.221

1.620,0.529,1.155,104.004,24.963,13.550
2.137,0.492,1.206,231.079,50.171,11.353
3.522,0.598,0.654,291.382,66.345,16.785
4.000,1.041,-0.260,243.164,44.861,-0.549
4.000,1.941,-1.468,131.592,-15.930,-51.636
3.889,1.881,-1.230,16.479,-91.492,-117.798
2.329,1.717,-0.436,-158.569,-177.673,-153.259
0.464,1.776,-0.597,-303.589,-168.884,-113.098
-4.000,1.152,1.418,-620.178,-221.374,-68.115
-4.000,0.404,3.329,-383.728,-276.062,-90.576
-4.000,-0.304,4.000,252.930,-216.614,-83.984
-3.808,-0.970,3.633,403.259,-118.042,-59.265
-3.237,-0.861,2.230,435.242,35.339,-6.104
-0.989,-0.412,-0.739,332.764,58.044,2.930
-0.663,-0.489,-1.082,38.513,10.315,-21.545
-1.618,-1.280,0.424,-68.176,-11.292,-31.616
-1.893,-1.340,1.130,-136.963,19.836,7.080
-0.940,-0.563,0.892,-121.582,53.040,28.809
-0.205,-0.050,0.248,-75.073,56.641,36.194
-0.090,0.061,0.458,-54.810,22.339,19.348
-0.229,0.035,0.890,-24.414,0.427,-0.427
-0.123,0.117,1.032,-21.484,10.742,-2.136
0.025,0.173,0.931,-13.794,24.292,-0.244
0.275,0.291,0.591,-8.972,22.400,-2.441
0.252,0.248,0.563,-8.179,14.771,-8.301
0.130,0.134,0.678,-13.367,1.160,-17.090
-0.021,0.043,0.816,-14.343,2.319,-15.503
-0.047,0.018,0.804,-7.324,0.244,-10.681
-0.074,-0.017,0.820,0.488,-4.211,-8.545
-0.097,-0.055,0.882,14.526,-11.292,-7.568
-0.043,-0.002,0.824,14.465,-11.902,-7.751
-0.081,-0.019,0.858,0.671,-20.020,-14.893
-0.241,-0.041,1.140,-2.747,-22.461,-16.174
-0.232,0.029,1.203,-2.380,-14.282,-13.184
-0.185,0.089,1.152,-0.244,-11.475,-12.390
-0.196,0.078,1.177,4.150,-9.827,-11.841
-0.243,0.006,1.214,5.615,-6.470,-10.376
-0.241,-0.037,1.174,7.751,3.052,-6.531
-0.184,-0.079,1.024,4.883,7.019,-4.517
-0.141,-0.029,0.960,-0.916,9.033,-1.465
-0.103,0.010,0.919,0.244,7.324,-1.404
-0.116,0.003,0.942,2.075,5.066,-0.977
-0.132,-0.010,0.950,-0.427,3.540,-0.427
-0.131,0.010,0.948,-1.404,2.625,-0.244
-0.105,0.037,0.938,2.441,0.244,0.488
-0.087,0.050,0.931,5.920,-2.136,0.488
-0.119,0.008,0.966,9.399,-4.578,-0.061
-0.113,-0.018,0.959,10.742,-4.089,1.221
-0.074,0.043,0.935,9.827,-4.822,0.549
-0.094,0.062,0.979,7.446,-6.714,-3.113
-0.149,0.005,1.025,8.118,-7.690,-5.432
-0.194,-0.053,1.046,10.254,-6.470,-4.028
-0.185,-0.046,1.037,6.958,-0.977,-2.136
-0.131,-0.026,0.964,6.409,-0.122,-1.892
-0.107,-0.017,0.922,9.338,-1.343,-1.587
-0.120,-0.025,0.933,14.893,-6.287,-2.197
-0.175,-0.067,0.995,11.780,-5.127,-3.601
-0.177,-0.099,0.987,8.667,-1.953,-3.235
-0.141,-0.061,0.961,9.460,-2.197,-1.587
-0.158,-0.041,1.001,2.930,-2.075,-3.113
-0.220,-0.099,1.064,1.709,-0.793,-3.540
-0.202,-0.115,1.044,9.277,1.526,0.916
-0.068,-0.036,0.951,9.827,2.502,2.747
-0.031,0.016,0.914,2.197,-0.122,-2.075
-0.132,-0.042,1.006,0.549,-3.601,-5.859
-0.187,-0.101,1.042,5.066,-5.005,-5.676
-0.173,-0.155,1.009,6.348,-2.991,-3.418
-0.127,-0.120,0.958,5.188,-1.038,-1.343
-0.136,-0.091,0.993,-0.366,-3.784,-2.136
-0.165,-0.093,1.038,0.854,-5.798,-2.136
-0.177,-0.092,1.058,7.141,-4.211,0.610
-0.152,-0.062,1.022,7.507,-2.197,1.221
-0.139,-0.050,1.004,6.226,-0.671,-0.366
-0.161,-0.081,1.007,6.226,-1.282,-1.343
-0.183,-0.107,1.036,4.089,-0.488,-0.977
-0.186,-0.114,1.027,3.540,0.793,-0.305
-0.196,-0.126,1.040,4.761,1.404,0.671
-0.190,-0.136,1.034,5.737,2.441,2.075
-0.181,-0.130,1.013,5.554,3.601,3.967
-0.146,-0.112,0.999,4.700,3.723,4.089
-0.110,-0.092,0.972,4.150,3.906,4.150
-0.073,-0.043,0.955,0.793,2.075,2.136
-0.095,-0.034,0.979,-1.770,0.366,0.061
-0.127,-0.033,1.006,-0.427,-1.770,-2.197
-0.166,-0.052,1.021,1.953,-1.831,-2.563
-0.173,-0.074,1.015,6.531,-1.404,-1.831
-0.187,-0.107,1.021,7.263,-0.732,-1.099
-0.187,-0.125,1.016,5.493,2.136,0.488
-0.148,-0.104,0.970,4.028,2.686,1.038
-0.128,-0.072,0.965,0.427,1.770,0.427
-0.130,-0.060,0.974,-1.465,1.526,-0.549
-0.145,-0.073,0.989,-2.747,1.038,-1.404
-0.162,-0.089,1.008,-2.136,0.854,-1.343
-0.141,-0.079,0.997,-0.549,0.977,-0.977
-0.093,-0.044,0.941,3.113,0.793,-0.732
-0.109,-0.057,0.957,3.723,-0.916,-1.587
-0.137,-0.084,0.983,5.249,-3.540,-1.953
-0.159,-0.105,1.001,5.493,-3.784,-1.465
-0.155,-0.092,1.003,2.258,-2.258,-3.296
-0.153,-0.107,1.020,1.709,-1.282,-3.601
-0.150,-0.096,1.013,1.709,-0.244,-1.770
-0.147,-0.098,1.005,1.892,-0.061,-0.854
-0.157,-0.110,1.003,2.319,-0.305,0.854
-0.154,-0.106,1.021,2.502,-0.183,1.587
-0.120,-0.070,0.996,1.587,1.404,0.916
-0.082,-0.054,0.952,0.244,0.671,-1.099
-0.087,-0.051,0.953,-0.061,-0.977,-2.319
-0.165,-0.115,1.015,0.732,-4.272,-3.601
-0.199,-0.147,1.036,1.282,-4.028,-2.808
-0.209,-0.151,1.032,2.075,-0.793,0.732
-0.170,-0.128,0.988,2.380,0.305,1.648
-0.141,-0.103,0.964,4.028,-0.488,1.221
-0.124,-0.082,0.977,4.089,-1.953,0.122
-0.144,-0.100,1.004,2.441,-2.869,-0.610
-0.188,-0.113,1.050,0.732,-1.709,0.122
-0.199,-0.129,1.048,-2.441,2.197,1.648
-0.175,-0.154,1.006,-2.319,3.296,2.869
-0.151,-0.138,0.982,-2.197,2.991,4.517
-0.110,-0.053,0.979,-1.648,1.648,4.456

1.694,0.603,0.980,141.052,14.465,20.630
2.345,0.795,1.140,301.270,52.063,12.573
3.926,1.103,0.406,355.408,78.186,7.812
4.000,1.663,-0.818,181.213,67.688,-31.311
4.000,1.780,-3.182,17.883,-0.854,-101.501
3.706,1.808,-2.984,-156.799,-249.634,-171.204
0.989,2.307,-1.223,-203.247,-326.660,-160.828
-1.745,1.782,-0.652,-325.806,-344.543,-147.400
-4.000,0.559,2.812,-395.325,-394.165,-102.600
-4.000,0.039,4.000,-141.113,-398.132,-74.341
-3.919,-2.154,4.000,476.501,-179.810,-38.818
-3.616,-2.266,2.774,586.792,-14.160,22.400
-2.451,-1.815,0.497,355.957,162.781,108.398
0.239,-0.130,-1.992,143.616,130.920,101.868
0.081,0.062,-1.079,-136.719,10.254,19.165
-0.918,-0.032,1.005,-166.016,2.625,4.822
-0.749,0.171,1.028,-125.244,42.114,16.418
-0.161,0.306,0.580,-99.915,44.373,15.198
-0.176,0.067,0.590,-57.617,16.235,-3.601
-0.407,-0.439,0.987,-46.936,10.681,-8.423
-0.309,-0.400,0.899,-38.452,20.020,-1.587
-0.050,-0.144,0.743,-38.635,19.165,0.305
0.081,0.110,0.693,-30.518,12.695,6.348
0.103,0.391,0.802,-24.353,5.920,3.052
0.032,0.350,0.864,-15.930,2.014,-2.319
-0.074,0.204,0.880,-1.160,1.038,-10.986
-0.240,-0.138,0.901,-1.404,3.235,-12.390
-0.188,-0.167,0.802,-5.737,7.080,-10.193
-0.061,-0.146,0.698,-6.836,2.808,-10.193
-0.066,-0.162,0.714,-10.071,-9.888,-11.597
-0.172,-0.167,0.886,-12.268,-15.076,-12.451
-0.198,-0.128,0.959,-13.977,-18.555,-13.062
-0.159,0.051,1.054,-12.756,-18.494,-12.512
-0.139,0.142,1.088,-11.230,-17.700,-12.756
-0.241,0.130,1.267,-9.644,-16.479,-13.977
-0.302,0.035,1.308,-1.587,-4.761,-9.827
-0.285,-0.067,1.157,5.310,1.160,-5.127
-0.238,-0.066,1.068,16.052,4.944,0.732
-0.173,-0.063,0.943,15.930,4.395,1.038
-0.169,-0.070,0.937,9.460,2.686,1.404
-0.116,0.016,0.895,4.272,2.930,2.258
-0.104,0.069,0.895,0.000,1.770,2.319
-0.117,0.091,0.922,1.221,-3.174,0.000
-0.166,-0.006,0.979,4.578,-4.333,-0.854
-0.151,-0.051,0.942,7.385,-4.211,0.793
-0.140,-0.055,0.925,3.662,-5.615,0.793
-0.162,-0.042,0.964,-2.502,-8.545,0.671
-0.216,0.003,1.065,-1.465,-8.362,1.953
-0.195,0.049,1.050,4.761,-3.723,4.883
-0.137,0.134,1.009,7.141,-3.296,4.639
-0.130,0.133,0.980,8.057,-2.686,0.427
-0.193,0.038,0.977,7.935,-4.150,-2.380
-0.250,-0.043,1.014,9.216,-4.944,-4.639
-0.231,-0.071,0.970,12.268,-3.174,-2.930
-0.196,-0.040,0.935,12.268,-3.235,-1.221
-0.191,0.018,0.973,8.118,-2.625,-1.160
-0.171,0.048,0.951,6.287,-1.221,-1.282
-0.153,0.048,0.941,9.338,-3.418,-4.089
-0.156,0.058,0.977,8.972,-5.066,-5.615
-0.156,0.049,0.963,4.700,-3.113,-8.301
-0.199,-0.028,0.974,3.540,-4.211,-9.277
-0.225,-0.072,1.004,1.282,-4.578,-9.460
-0.214,-0.079,1.016,0.061,-2.747,-7.690
-0.196,-0.060,1.009,-1.953,-0.549,-5.493
-0.161,-0.029,0.992,-1.099,0.000,-4.883
-0.132,0.000,0.964,5.249,-1.770,-4.700
-0.127,0.017,0.970,8.057,-4.211,-5.493
-0.157,-0.017,0.981,8.179,-5.981,-8.118
-0.209,-0.118,1.002,8.606,-5.981,-7.812
-0.211,-0.131,0.989,8.606,-4.944,-5.005
-0.218,-0.151,1.006,6.226,-4.211,-4.456
-0.205,-0.136,0.993,0.244,-1.465,-3.357
-0.154,-0.049,0.976,-0.427,-1.831,-3.235
-0.150,-0.020,0.987,0.366,-4.211,-4.883
-0.212,-0.076,1.057,0.732,-4.456,-5.676
-0.225,-0.105,1.052,2.258,-1.221,-4.150
-0.187,-0.097,0.979,2.930,-0.549,-3.052
-0.181,-0.086,0.972,3.052,-3.418,-3.174
-0.211,-0.079,1.042,3.052,-4.333,-2.869
-0.208,-0.057,1.051,2.380,-2.869,-2.075
-0.182,-0.049,1.001,1.648,0.793,-2.136
-0.177,-0.063,0.979,2.808,0.366,-2.686
-0.186,-0.076,0.984,4.883,-3.052,-2.930
-0.208,-0.086,1.029,4.578,-3.052,-2.441
-0.201,-0.073,1.014,2.502,-0.122,-2.197
-0.204,-0.111,0.987,1.587,-0.366,-2.686
-0.208,-0.109,0.997,1.282,-1.221,-0.610
-0.192,-0.018,1.015,-0.488,-0.305,-0.488
-0.197,-0.010,1.032,-1.526,1.526,-3.662
-0.209,-0.057,1.024,1.526,2.380,-3.601
-0.212,-0.095,0.993,5.798,2.930,-1.465
-0.212,-0.134,0.958,6.226,2.502,0.366
-0.198,-0.105,0.938,3.479,1.282,1.831
-0.189,-0.082,0.959,2.014,-0.061,0.916
-0.186,-0.079,0.954,0.916,-1.465,0.183
-0.208,-0.082,0.998,1.221,-2.991,0.305
-0.209,-0.055,1.017,1.282,-0.244,1.770
-0.186,-0.045,0.977,2.197,0.793,1.038
-0.191,-0.064,0.984,2.747,0.183,0.549
-0.205,-0.086,0.979,0.610,0.183,0.610
-0.212,-0.107,0.967,-0.793,0.549,0.122
-0.211,-0.119,0.970,-0.305,-0.793,0.366
-0.163,-0.068,0.945,0.732,-1.099,1.282
-0.155,-0.031,0.955,-1.465,-2.136,0.000
-0.193,-0.056,1.010,-3.052,-2.014,-1.526
-0.200,-0.063,1.017,-1.282,-0.977,-0.732
-0.204,-0.088,0.984,-0.183,-1.160,-0.671
-0.219,-0.107,1.002,0.854,-3.052,0.366
-0.226,-0.112,1.012,0.183,-2.014,1.343
-0.203,-0.091,0.988,2.014,-1.221,3.662
-0.170,-0.015,0.983,4.333,-2.625,4.578
-0.168,0.009,0.987,7.141,-3.601,2.747
-0.203,-0.060,0.997,8.667,-4.211,1.831
-0.216,-0.091,1.001,10.864,-4.700,2.319
-0.230,-0.146,0.986,9.399,-2.930,2.136
-0.229,-0.158,0.983,4.395,-1.038,0.977
-0.222,-0.143,0.980,-1.892,0.793,1.526
-0.196,-0.065,0.996,-2.014,0.977,2.136
-0.179,-0.041,0.986,-0.671,1.343,1.160

1.412,0.605,1.156,85.266,21.545,29.114
1.795,0.702,1.238,177.368,53.833,45.166
2.949,1.328,0.946,230.469,89.661,56.458
3.658,1.683,0.366,258.850,144.592,20.447
4.000,2.068,-1.813,194.885,128.967,-30.518
4.000,1.728,-2.659,4.333,-45.471,-149.780
2.495,0.959,-1.934,-95.520,-153.259,-162.842
0.950,0.951,-1.087,-184.265,-221.313,-136.841
-3.245,0.276,0.737,-392.029,-278.137,-39.612
-4.000,0.050,3.047,-404.175,-320.251,-9.155
-4.000,-0.542,4.000,118.042,-200.806,-21.545
-3.955,-1.946,4.000,327.332,-110.779,-7.385
-3.481,-1.920,3.467,375.122,92.407,61.035
-0.522,0.093,-0.415,292.786,161.682,89.294
0.249,0.364,-1.181,55.664,74.951,21.118
-0.415,-0.302,-0.098,-6.470,19.775,-12.024
-0.972,-0.819,0.549,-59.143,-2.197,-22.644
-0.926,-0.707,1.105,-66.101,17.151,-5.737
-0.446,-0.267,0.737,-68.848,42.603,17.639
-0.034,0.157,0.627,-70.862,31.738,13.184
-0.055,0.158,0.715,-52.124,14.099,0.305
-0.237,-0.097,1.057,-42.908,13.123,-5.066
-0.136,-0.076,1.026,-28.442,31.677,2.258
0.436,0.402,0.427,-22.461,36.499,5.188
0.528,0.550,0.309,-18.982,27.588,0.793
0.107,0.243,0.733,-18.433,-6.104,-20.874
-0.061,0.131,0.910,-13.306,-12.146,-23.682
-0.091,0.068,0.890,5.798,-5.737,-22.278
-0.038,-0.053,0.794,10.376,-6.287,-22.034
-0.043,-0.119,0.796,5.127,-11.963,-19.653
-0.127,-0.176,0.909,2.075,-15.137,-16.968
-0.147,-0.195,0.984,4.089,-14.282,-13.428
-0.040,-0.047,0.987,0.671,-10.681,-9.705
0.011,0.028,0.942,-11.292,-8.484,-9.766
-0.068,0.010,1.045,-17.273,-10.986,-11.169
-0.137,0.005,1.158,-19.897,-8.728,-9.155
-0.151,0.088,1.236,-13.794,-2.625,-6.836
-0.116,0.080,1.183,2.686,8.789,-5.188
-0.038,0.042,1.029,9.277,11.169,-4.822
-0.005,0.001,0.976,8.911,11.414,-7.507
0.041,-0.025,0.932,7.080,9.949,-6.714
0.062,-0.013,0.912,7.324,8.057,-4.944
0.078,-0.009,0.895,4.761,4.089,-4.150
0.059,0.004,0.943,1.404,2.441,-4.028
0.054,0.012,0.957,-2.319,2.075,-3.479
0.042,0.017,0.963,-2.319,0.427,-3.845
0.011,0.015,1.041,-2.502,-1.770,-3.845
0.034,0.081,1.052,-2.808,1.892,-1.770
0.054,0.089,1.012,0.916,3.479,-0.366
0.082,0.054,0.984,4.761,2.319,0.427
0.112,0.077,0.929,9.155,2.014,2.136
0.048,0.037,0.933,1.526,2.136,-3.052
-0.014,-0.045,0.982,-5.066,2.441,-7.141
-0.027,-0.058,0.987,-2.747,4.028,-3.052
0.032,-0.004,0.885,0.061,3.235,-0.854
0.038,-0.002,0.888,5.188,-2.991,1.404
0.029,0.050,0.970,5.310,-4.150,2.197
0.015,0.075,1.001,-3.113,0.305,-0.427
-0.019,-0.001,1.003,-3.296,1.587,-1.099
-0.021,-0.026,1.006,-0.916,3.174,0.549
0.069,0.038,0.956,-1.526,4.150,1.343
0.136,0.121,0.892,-1.343,-0.122,-0.732
0.098,0.145,0.954,0.916,-5.920,-4.333
0.030,0.093,1.028,8.118,-9.827,-8.484
-0.021,-0.019,1.031,10.742,-8.057,-8.301
-0.007,-0.048,0.994,11.719,-6.653,-7.446
0.028,-0.057,0.952,9.888,-7.385,-6.470
0.012,-0.071,0.971,8.301,-8.972,-6.714
-0.029,-0.097,1.029,2.686,-9.399,-6.897
-0.061,-0.141,1.071,1.099,-6.653,-5.249
-0.034,-0.113,1.062,0.183,-2.502,-0.610
0.043,-0.021,1.003,-1.770,-1.526,-0.183
0.049,-0.007,1.010,-0.854,-4.028,-1.465
0.054,0.004,0.997,1.648,-5.005,-1.831
0.043,-0.002,0.988,7.080,-9.460,-2.747
-0.015,-0.037,1.052,8.362,-10.986,-3.235
-0.021,-0.045,1.056,8.240,-7.935,-3.418
-0.010,-0.050,1.000,9.338,-7.324,-3.967
-0.042,-0.082,1.044,8.301,-7.812,-5.371
-0.062,-0.105,1.062,5.005,-4.578,-4.089
-0.030,-0.070,1.036,3.174,-2.136,-1.221
0.024,0.002,1.018,1.587,-2.502,-1.160
0.022,0.005,1.018,-2.380,-3.479,-2.075
-0.026,-0.026,1.051,-2.075,-4.272,-2.380
-0.046,-0.040,1.078,-1.404,-4.272,-2.502
-0.053,-0.060,1.061,-1.160,-0.854,-2.075
-0.071,-0.090,1.077,-1.831,0.977,-0.366
-0.043,-0.090,1.044,-1.099,2.686,1.282
-0.003,-0.065,1.015,0.366,3.235,2.258
0.034,-0.037,0.986,0.427,1.831,2.075
0.052,0.026,0.964,-0.366,-0.366,1.343
0.022,0.027,0.998,-1.526,-3.357,-2.197
-0.022,-0.016,1.024,-0.549,-2.563,-2.930
-0.021,-0.039,0.999,1.526,-1.831,-2.319
-0.017,-0.052,0.989,1.282,-2.502,-1.465
-0.010,-0.033,0.990,-0.305,-3.113,-0.671
-0.030,-0.053,1.008,-0.916,-3.052,-1.221
-0.036,-0.071,1.010,-0.793,-1.343,-0.061
-0.009,-0.022,0.979,-0.244,-1.160,1.282
-0.000,0.010,0.985,-1.709,-2.625,0.610
-0.005,-0.013,0.998,-2.441,-2.747,-0.305
-0.001,-0.028,0.987,-0.793,-3.296,0.183
0.008,-0.011,0.970,-0.366,-4.150,0.488
-0.005,-0.008,0.982,1.099,-6.104,-0.977
-0.051,-0.069,1.004,1.343,-6.409,-1.587
-0.072,-0.103,1.014,1.831,-6.104,0.854
-0.049,-0.073,1.017,1.770,-5.127,2.991
-0.019,-0.027,1.007,1.465,-4.028,4.333
0.023,0.028,0.965,-0.977,-3.113,2.563
0.015,0.026,0.966,-1.648,-4.089,0.916
-0.007,0.017,0.985,0.732,-7.324,-0.549
-0.050,-0.045,1.008,2.319,-8.118,-0.732
-0.067,-0.069,1.023,2.075,-7.629,0.366
-0.073,-0.097,1.024,0.549,-6.287,1.160
-0.053,-0.067,1.014,-2.319,-4.639,3.601
-0.039,-0.036,1.002,-3.784,-4.761,2.991
-0.047,-0.034,1.025,-3.906,-5.005,2.197
-0.041,-0.014,1.015,-3.662,-4.211,1.892
-0.031,-0.002,1.007,0.671,-5.554,2.075

1.859,0.745,0.581,121.826,70.068,45.532
2.442,0.953,0.131,198.120,81.543,41.626
3.768,1.492,-1.066,222.351,68.420,30.396
4.000,1.962,-1.839,184.692,-26.123,-38.757
3.826,2.093,-2.483,124.756,-111.023,-108.521
2.922,1.447,-1.848,-58.533,-253.662,-212.219
0.368,1.054,0.228,-140.381,-259.460,-194.031
-0.888,1.435,0.728,-195.435,-231.323,-100.342
-3.599,1.049,2.121,-178.284,-244.263,-77.209
-4.000,0.644,3.070,9.766,-249.817,-69.763
-4.000,-1.111,3.483,158.569,-205.200,-86.853
-3.975,-2.366,3.211,260.010,-145.630,-93.384
-3.819,-3.449,3.037,260.437,-14.648,-30.518
-2.238,-2.953,1.212,165.894,53.101,24.658
-1.425,-1.940,0.533,-47.546,83.130,71.899
-0.734,0.120,0.419,-97.412,69.580,71.411
-0.584,0.631,0.642,-76.904,50.049,41.931
-0.145,0.960,0.627,-41.260,51.025,32.959
-0.122,0.700,0.544,7.568,42.542,6.409
-0.524,-0.357,0.766,13.367,36.072,-2.991
-0.615,-0.765,0.807,-0.854,40.344,4.517
-0.131,-0.559,0.454,-17.395,46.753,16.724
0.305,-0.052,0.055,-49.988,31.799,24.231
0.244,0.418,0.440,-61.584,4.822,12.024
-0.045,0.391,0.899,-61.768,-13.062,1.282
-0.178,0.371,1.112,-23.804,-3.418,0.000
0.002,0.383,0.810,-0.366,4.150,1.099
0.025,0.248,0.729,22.705,-3.113,-7.935
-0.114,-0.085,0.758,19.165,-7.263,-11.597
-0.150,-0.179,0.807,-2.380,-7.202,-12.085
-0.030,-0.049,0.739,-9.277,-6.348,-8.972
-0.006,0.033,0.744,-18.005,-15.198,-8.423
-0.137,0.053,0.949,-18.311,-20.386,-9.399
-0.199,0.029,1.050,-6.592,-20.264,-8.545
-0.168,0.051,1.054,-0.977,-17.029,-6.897
-0.144,0.062,1.020,-5.188,-11.536,-8.179
-0.151,-0.006,1.002,-7.568,-11.108,-10.071
-0.165,-0.016,1.033,-5.737,-10.132,-9.583
-0.163,0.041,1.063,-5.066,-7.935,-8.850
-0.168,0.047,1.077,1.221,-4.944,-7.080
-0.183,0.004,1.043,5.188,-3.418,-6.287
-0.219,-0.051,1.047,6.653,-1.892,-5.798
-0.238,-0.121,1.035,6.348,0.427,-3.479
-0.190,-0.068,0.994,9.338,3.418,1.404
-0.071,0.000,0.910,7.080,3.540,1.038
-0.034,0.036,0.899,3.479,2.014,0.916
-0.027,0.116,0.927,-4.333,-1.770,-1.709
-0.057,0.120,0.964,-6.653,-3.662,-4.700
-0.114,0.094,1.026,-3.418,-7.751,-7.751
-0.221,-0.005,1.128,2.136,-7.507,-6.165
-0.225,-0.026,1.123,10.010,-1.221,-1.404
-0.184,-0.084,1.081,10.071,1.892,-0.793
-0.099,-0.045,0.999,6.409,7.935,2.136
-0.009,0.046,0.856,0.671,5.859,-0.244
-0.080,0.027,0.938,-2.197,-3.662,-4.456
-0.193,-0.011,1.076,0.366,-3.479,-3.357
-0.164,0.004,1.032,3.845,1.892,-1.221
-0.141,-0.048,0.970,5.676,0.549,-1.404
-0.187,-0.098,1.022,7.629,-2.747,0.488
-0.135,-0.035,1.030,5.920,2.197,2.930
-0.038,0.035,0.892,1.221,8.179,3.113
-0.054,0.004,0.918,-5.493,2.075,-2.808
-0.099,-0.020,0.995,-2.869,-2.563,-3.357
-0.101,-0.001,1.033,3.479,-1.648,-1.099
-0.031,0.063,0.932,2.258,0.122,-2.625
-0.071,0.011,0.961,-0.488,-4.272,-7.935
-0.178,-0.089,1.081,1.160,-4.395,-6.653
-0.164,-0.097,1.053,2.258,1.160,-1.221
-0.115,-0.077,0.972,1.648,1.404,-0.122
-0.123,-0.067,0.982,0.244,-0.916,-0.366
-0.151,-0.056,1.038,1.282,-1.038,-0.244
-0.144,-0.058,1.033,4.395,1.099,0.977
-0.073,-0.037,0.953,4.883,1.648,1.404
-0.050,-0.021,0.932,2.991,-1.831,0.122
-0.083,-0.013,0.975,1.221,-3.906,-0.977
-0.135,-0.035,1.038,0.122,-5.371,-1.709
-0.172,-0.067,1.062,0.061,-2.441,-0.244
-0.141,-0.054,1.010,1.465,-0.244,1.038
-0.121,-0.045,0.983,2.258,-1.282,0.671
-0.116,-0.043,0.998,2.014,-2.258,0.183
-0.114,-0.048,0.991,1.770,-3.662,-0.366
-0.122,-0.064,1.005,1.282,-4.333,-0.427
-0.119,-0.053,1.012,0.305,-4.089,-0.244
-0.092,-0.003,1.002,0.122,-3.723,-0.427
-0.094,0.006,1.003,-0.488,-4.578,-2.014
-0.145,-0.042,1.035,0.122,-4.639,-2.563
-0.164,-0.082,1.046,3.052,-3.601,-1.282
-0.155,-0.120,1.029,3.052,-2.563,0.366
-0.124,-0.093,1.002,-2.014,-0.549,2.930
-0.084,0.020,0.971,-4.028,-1.404,2.502
-0.114,0.010,1.006,-4.150,-3.723,-0.854
-0.167,-0.055,1.035,-2.075,-3.357,-0.916
-0.172,-0.077,1.017,0.916,-2.380,0.305
-0.145,-0.070,0.990,0.793,-2.197,1.221
-0.112,-0.030,0.952,-0.061,-2.014,2.014
-0.106,0.032,0.972,-0.366,-5.493,0.793
-0.125,0.035,0.994,0.427,-6.897,-0.488
-0.159,0.007,1.022,3.174,-6.714,-1.404
-0.202,-0.033,1.037,3.906,-5.066,-1.038
-0.199,-0.064,1.016,2.563,-2.747,-1.221
-0.172,-0.074,0.999,0.793,-2.014,-0.977
-0.152,-0.060,0.979,-1.404,-2.014,-0.977
-0.153,-0.041,1.002,-0.916,-3.296,-0.671
-0.148,-0.015,1.007,1.282,-2.991,0.854
-0.144,-0.016,0.995,1.526,-2.625,0.305
-0.139,-0.015,1.007,0.977,-2.258,-0.244
-0.094,0.058,0.963,-0.183,-1.831,-0.916
-0.122,0.025,0.974,-2.319,-4.639,-5.249
-0.224,-0.095,1.064,-1.038,-4.883,-4.883
-0.233,-0.106,1.072,1.404,-0.549,-1.953
-0.187,-0.091,1.028,0.671,1.465,-1.526
-0.150,-0.058,0.997,1.770,2.258,0.366
-0.103,0.010,0.958,3.113,0.977,0.732
-0.093,0.015,0.953,2.991,-0.427,-0.061
-0.123,-0.051,0.963,0.671,-3.845,-2.625
-0.157,-0.083,0.994,0.000,-5.798,-2.930
-0.184,-0.092,1.032,-1.038,-5.432,-1.526
-0.201,-0.066,1.068,-2.930,-2.441,-1.099
-0.184,-0.056,1.043,-2.991,1.587,-0.244

1.356,0.498,1.064,53.955,11.902,13.550
1.730,0.969,0.918,112.854,41.565,53.894
2.796,2.439,0.254,126.953,62.500,35.767
3.269,2.677,-0.389,114.136,55.542,-76.965
3.460,2.637,-1.209,83.374,3.113,-134.644
2.948,2.159,-1.267,49.194,-63.660,-183.655
2.039,1.494,-1.210,-15.442,-172.791,-223.022
-0.373,-0.062,-0.773,-52.246,-203.491,-212.463
-1.829,-0.843,-0.509,-167.786,-254.089,-143.066
-4.000,-1.442,1.966,-178.406,-291.321,-97.168
-4.000,-1.404,3.155,8.179,-233.643,-30.579
-3.935,-1.663,3.707,83.801,-161.621,-3.906
-3.492,-1.194,3.374,124.390,1.953,50.537
-1.510,-0.013,1.174,121.704,55.847,64.331
-0.553,0.524,0.345,80.139,57.861,45.227
0.247,0.770,-0.200,58.533,27.039,22.034
0.131,0.590,-0.049,3.235,-32.959,-18.860
-0.554,0.120,0.739,-13.977,-50.659,-27.283
-0.753,-0.054,1.056,-20.691,-52.979,-27.100
-0.829,-0.145,1.305,-24.597,-32.349,-9.949
-0.792,-0.146,1.391,-24.292,-21.545,-1.404
-0.626,-0.054,1.310,-13.306,4.150,13.977
-0.081,0.379,0.854,-8.972,10.864,16.724
0.083,0.523,0.686,-13.977,1.770,1.465
-0.044,0.412,0.814,-15.198,-6.836,-7.690
-0.145,0.310,0.872,-3.296,-10.925,-11.475
-0.252,0.171,0.846,2.197,-11.414,-11.353
-0.305,0.086,0.874,8.179,-14.587,-10.132
-0.328,0.042,0.931,11.292,-14.893,-6.836
-0.253,0.093,0.861,9.155,-12.390,-3.845
-0.214,0.133,0.835,6.104,-16.479,-5.066
-0.247,0.129,0.858,2.136,-19.836,-6.470
-0.370,0.040,0.989,-5.676,-23.376,-9.399
-0.400,0.032,1.037,-8.362,-22.278,-8.362
-0.412,0.032,1.055,-6.958,-18.372,-3.906
-0.428,0.012,1.148,-3.357,-16.785,-1.343
-0.373,0.081,1.114,3.052,-7.629,5.127
-0.297,0.151,1.026,1.892,-4.822,3.723
-0.293,0.140,1.020,-0.916,-2.441,0.061
-0.235,0.155,0.986,-0.183,-0.427,0.244
-0.194,0.173,0.911,0.671,-1.526,-0.305
-0.249,0.110,0.956,1.465,-5.493,-1.587
-0.280,0.061,0.963,3.479,-8.911,-0.793
-0.365,-0.002,1.070,1.282,-8.484,0.305
-0.382,-0.016,1.114,-2.991,-5.310,1.526
-0.340,0.025,1.111,-6.348,3.357,6.531
-0.169,0.199,0.985,-5.432,4.517,7.568
-0.118,0.274,0.977,-0.793,0.671,6.042
-0.148,0.314,1.010,3.357,-1.343,4.700
-0.193,0.263,1.014,12.817,-0.977,3.113
-0.239,0.133,0.949,15.503,-0.305,2.991
-0.273,0.051,0.939,10.742,-0.366,2.502
-0.302,0.005,0.942,5.798,0.183,3.357
-0.288,0.033,0.937,1.648,0.305,4.517
-0.250,0.139,0.956,-1.404,-1.648,6.714
-0.227,0.187,0.947,-0.977,-2.502,7.080
-0.229,0.216,0.958,-0.244,-5.493,5.493
-0.277,0.259,1.040,-0.122,-5.066,3.418
-0.279,0.254,1.026,5.554,-0.671,-0.305
-0.286,0.223,0.987,10.254,-0.183,-1.465
-0.318,0.173,1.014,15.930,0.549,-2.258
-0.338,0.100,1.025,16.663,2.930,-1.343
-0.310,0.086,0.989,15.320,7.080,-0.305
-0.235,0.060,0.880,12.634,7.690,-0.427
-0.208,0.095,0.827,4.150,3.906,-1.770
-0.197,0.168,0.810,-0.427,0.061,-4.272
-0.208,0.194,0.839,-4.211,-3.845,-7.324
-0.249,0.169,0.900,-5.371,-10.742,-12.756
-0.321,0.122,1.056,-1.953,-11.292,-12.268
-0.317,0.128,1.072,5.798,-5.127,-9.338
-0.329,0.076,1.072,7.935,-2.197,-8.423
-0.346,0.035,1.067,11.108,2.930,-5.188
-0.320,0.031,1.013,13.184,5.615,-2.747
-0.265,0.036,0.927,9.949,8.789,-3.174
-0.121,0.094,0.796,7.019,6.836,-3.601
-0.060,0.185,0.730,2.502,-3.784,-7.202
-0.171,0.134,0.873,0.427,-11.414,-12.634
-0.265,0.063,0.993,4.211,-14.404,-13.489
-0.336,-0.017,1.037,7.507,-11.047,-10.559
-0.345,-0.043,1.037,9.033,-5.676,-4.700
-0.328,0.000,1.033,10.071,-3.296,-0.671
-0.285,0.064,0.983,11.292,-0.732,2.197
-0.236,0.108,0.936,9.949,-0.427,-0.244
-0.198,0.150,0.914,7.874,-2.197,-2.930
-0.223,0.115,0.919,-1.648,-5.310,-10.254
-0.321,0.028,1.011,-5.005,-6.897,-11.475
-0.360,0.017,1.078,-5.737,-4.639,-9.216
-0.319,0.021,1.060,-7.507,-0.305,-8.118
-0.260,0.045,0.987,-11.780,2.563,-6.836
-0.244,0.109,0.980,-12.451,-0.305,-7.324
-0.281,0.115,1.025,-10.071,-3.357,-9.216
-0.325,0.084,1.083,-7.080,-2.258,-9.460
-0.319,0.047,1.065,-4.822,3.113,-7.507
-0.250,0.055,0.991,-5.676,5.188,-5.981
-0.206,0.100,0.956,-6.042,4.272,-5.066
-0.188,0.160,0.955,-5.798,2.563,-6.348
-0.214,0.124,0.955,-5.676,1.404,-8.240
-0.280,0.038,0.982,-3.235,-0.061,-8.972
-0.288,0.019,0.987,-2.136,0.427,-7.874
-0.284,0.015,0.974,-1.465,2.625,-3.967
-0.264,0.032,0.955,-2.197,3.174,-2.563
-0.236,0.068,0.931,-1.770,2.502,-0.610
-0.227,0.107,0.930,0.061,0.610,-0.671
-0.243,0.090,0.948,0.977,-0.610,-0.977
-0.255,0.093,0.942,0.183,-0.366,-0.732
-0.266,0.105,0.963,-1.526,-0.244,-0.427
-0.284,0.120,0.985,-0.732,0.183,-0.061
-0.291,0.105,0.997,1.953,1.465,0.244
-0.271,0.084,0.989,2.136,2.808,1.038
-0.244,0.097,0.960,0.122,3.784,1.831
-0.220,0.116,0.937,-0.366,2.563,1.221
-0.249,0.083,0.974,-0.671,1.038,0.244
-0.271,0.060,1.012,-0.061,2.197,1.526
-0.251,0.064,0.957,0.977,3.235,2.869
-0.259,0.051,0.954,0.244,0.366,2.563
-0.306,-0.007,1.004,-0.854,-0.122,3.052
-0.308,-0.005,1.006,-2.441,2.258,6.897
-0.281,0.056,0.989,-3.113,3.479,8.911
-0.264,0.095,0.984,-0.732,4.211,10.864

1.532,0.853,0.821,65.918,57.800,34.546
2.131,1.286,0.369,108.154,61.157,25.574
3.029,1.517,-0.239,99.731,34.607,-12.512
3.123,1.275,-0.249,58.472,-47.363,-84.167
2.749,1.110,-0.027,47.302,-82.214,-90.210
2.378,1.263,0.096,21.423,-109.375,-97.046
1.140,1.286,0.384,-13.428,-101.685,-118.225
0.105,0.578,0.619,-48.340,-94.971,-140.564
-0.881,-0.120,1.114,15.930,-129.517,-97.107
-2.034,-0.168,2.245,96.069,-140.869,-60.242
-2.234,-0.520,2.064,176.453,-100.281,-55.420
-2.365,-1.318,1.332,166.016,-90.027,-46.448
-2.227,-1.403,1.050,114.136,-89.111,-24.658
-1.408,-0.867,0.260,88.745,-96.924,-21.545
-1.396,-0.496,0.419,-5.737,-129.944,-32.532
-1.887,-0.021,1.484,-37.537,-124.634,-39.429
-2.054,-0.101,1.802,-14.771,-69.458,-30.151
-2.080,-0.740,1.834,12.817,-31.311,-18.677
-1.724,-0.828,1.469,40.771,42.908,18.799
-0.529,-0.293,0.235,20.020,63.354,28.564
-0.135,0.091,-0.153,-43.091,40.771,13.062
-0.232,0.241,0.251,-52.673,15.320,-3.784
-0.259,0.144,0.419,-33.264,-2.808,-16.846
-0.071,0.212,0.399,-22.827,-8.301,-15.564
-0.059,0.291,0.501,-15.198,-21.790,-20.081
-0.284,0.123,0.805,-9.766,-27.710,-25.696
-0.439,-0.103,0.954,-1.648,-26.123,-27.344
-0.558,-0.378,1.024,-2.014,-20.264,-22.400
-0.458,-0.399,0.940,-5.127,-13.489,-16.724
-0.109,-0.085,0.714,-3.479,-12.817,-2.380
-0.074,0.043,0.771,-2.930,-20.691,-1.770
-0.255,0.010,1.113,-9.521,-30.579,-11.047
-0.303,-0.005,1.181,-9.705,-27.466,-11.475
-0.300,0.032,1.155,-3.174,-17.944,-7.446
-0.359,-0.074,1.152,0.549,-16.418,-7.812
-0.391,-0.118,1.169,8.789,-10.437,-2.136
-0.349,-0.129,1.039,7.751,-5.188,-0.793
-0.312,-0.149,0.945,-0.244,-2.930,-2.136
-0.279,-0.104,0.912,-2.991,-5.676,-1.526
-0.262,-0.033,0.915,-7.202,-8.972,-0.488
-0.314,-0.005,1.003,-8.667,-10.315,-1.404
-0.339,-0.010,1.036,-5.310,-7.874,-0.732
-0.336,-0.027,0.999,-1.282,-6.226,0.000
-0.326,-0.042,0.974,4.639,-6.042,1.587
-0.326,-0.025,0.952,4.333,-7.263,1.404
-0.363,-0.079,0.988,-0.916,-7.629,-0.427
-0.348,-0.076,0.990,-0.244,-5.859,2.380
-0.308,-0.009,0.952,-1.404,-4.150,3.601
-0.311,-0.002,0.986,-3.723,-4.578,1.587
-0.323,0.001,1.000,-3.479,-3.052,1.770
-0.295,0.036,0.953,-1.099,-1.709,2.136
-0.271,0.044,0.907,7.141,-4.089,2.197
-0.323,-0.056,0.927,9.155,-7.263,1.404
-0.377,-0.109,0.984,5.676,-6.226,1.099
-0.393,-0.157,0.975,1.282,-2.686,0.854
-0.375,-0.145,0.954,-1.709,-0.916,1.587
-0.358,-0.115,0.944,-2.014,-1.221,5.066
-0.320,-0.039,0.944,-1.587,-1.953,5.798
-0.288,0.002,0.922,-1.709,-4.272,4.272
-0.307,0.053,0.978,-1.465,-6.836,2.502
-0.351,0.036,1.030,-0.305,-4.028,-2.258
-0.390,-0.054,1.036,2.197,-1.404,-2.869
-0.378,-0.066,1.015,6.958,2.014,0.305
-0.343,-0.052,0.969,7.141,3.052,1.587
-0.338,-0.079,0.960,2.808,3.784,0.427
-0.326,-0.113,0.960,0.977,3.540,0.610
-0.297,-0.074,0.926,1.770,2.502,2.930
-0.285,-0.012,0.906,3.418,0.305,3.174
-0.304,-0.015,0.925,0.366,-1.953,-0.610
-0.358,-0.113,0.971,-1.770,-2.014,-1.709
-0.359,-0.122,0.971,-2.625,-1.160,-0.732
-0.315,-0.049,0.945,-3.479,0.488,1.831
-0.301,-0.018,0.942,-4.089,0.061,1.892
-0.298,0.000,0.953,-0.183,-2.441,2.686
-0.303,0.028,0.950,4.883,-2.502,3.723
-0.311,-0.008,0.930,10.559,-2.441,1.160
-0.314,-0.104,0.913,11.353,-2.747,0.854
-0.294,-0.093,0.890,5.127,-2.563,0.427
-0.310,-0.126,0.899,-0.610,-4.028,-1.831
-0.331,-0.122,0.939,-1.709,-8.118,-0.732
-0.355,-0.076,0.991,-0.732,-7.996,0.488
-0.363,-0.062,1.008,-2.502,-2.136,1.221
-0.348,-0.073,0.957,-2.563,-0.183,1.038
-0.335,-0.065,0.944,0.916,-2.502,1.709
-0.341,-0.041,0.982,0.000,-2.625,1.709
-0.342,-0.037,0.970,-1.587,0.916,1.831
-0.355,-0.091,0.946,-0.305,1.038,2.075
-0.358,-0.118,0.941,2.075,0.244,3.357
-0.333,-0.109,0.925,8.850,-2.197,8.606
-0.204,0.096,0.836,9.521,-3.784,8.789
-0.211,0.112,0.846,-4.761,-8.423,-5.066
-0.372,-0.042,1.003,-7.996,-10.071,-8.728
-0.393,-0.067,1.007,0.488,-7.324,-4.944
-0.335,-0.092,0.901,3.479,-7.507,-3.357
-0.316,-0.108,0.874,4.517,-15.442,-1.831
-0.311,-0.120,0.844,4.700,-20.630,-0.610
-0.358,-0.120,0.890,8.240,-28.625,3.479
-0.466,0.024,1.185,3.601,-22.217,2.014
-0.500,-0.056,1.175,-7.080,4.272,-4.150
-0.422,-0.045,1.039,-1.831,10.254,-0.305
-0.356,-0.028,0.946,6.592,12.878,-0.061
-0.286,-0.083,0.848,7.629,10.254,-2.075
-0.298,-0.101,0.866,2.258,4.456,-5.066
-0.356,-0.102,0.945,-1.831,3.845,-5.249
-0.373,-0.090,0.959,-4.272,4.272,-4.395
-0.385,-0.083,0.965,-3.906,4.578,-2.747
-0.397,-0.113,0.972,-2.014,4.517,-2.625
-0.390,-0.128,0.971,1.587,5.066,-0.427
-0.324,-0.073,0.931,3.113,5.310,1.343
-0.281,-0.020,0.896,4.944,2.563,1.587
-0.288,0.017,0.927,3.906,0.427,-0.732
-0.326,-0.031,0.947,2.014,-0.488,-3.784
-0.361,-0.092,0.949,3.113,-0.183,-2.991
-0.362,-0.114,0.940,2.136,-0.488,-1.221
-0.395,-0.132,0.976,-0.366,-0.122,-0.549
-0.401,-0.139,0.977,-1.465,2.747,1.648
-0.363,-0.121,0.936,-0.061,3.296,2.991
-0.339,-0.092,0.921,2.441,0.977,4.761
-0.314,-0.006,0.928,1.892,-0.244,4.028

2.485,0.523,0.029,97.412,117.371,48.889
3.276,1.173,-0.671,175.049,85.571,123.596
4.000,2.888,-2.147,198.914,33.997,104.980
4.000,3.066,-2.945,196.228,-146.362,-55.298
3.546,2.043,-2.953,146.179,-259.216,-148.682
2.385,1.292,-1.757,-80.505,-356.811,-257.385
-0.897,0.998,0.524,-199.463,-310.730,-254.883
-2.599,0.606,1.275,-284.851,-193.237,-181.824
-4.000,-0.463,3.280,-208.557,-178.223,-91.980
-4.000,-0.648,4.000,214.722,-109.497,-22.644
-3.830,-2.561,3.565,339.416,-21.667,-33.691
-3.122,-2.419,2.545,333.557,44.678,-7.263
-1.787,-1.599,1.136,105.774,102.966,47.668
0.324,0.527,-0.714,-13.000,81.848,43.762
0.219,1.065,-0.595,-95.276,-20.691,-5.310
-1.100,0.386,0.789,-85.632,-50.232,-33.691
-1.522,-0.313,1.321,-52.673,-26.917,-43.152
-1.192,-0.955,1.194,-41.138,3.174,-21.729
-0.688,-0.669,0.907,-46.692,30.579,19.897
0.187,0.322,0.309,-50.293,24.414,21.606
0.156,0.411,0.506,-36.621,-12.085,-10.620
-0.029,0.245,0.797,-19.226,-14.832,-14.648
-0.033,0.217,0.758,10.010,-13.306,-10.132
-0.038,0.100,0.726,15.076,-11.963,-10.620
-0.044,0.011,0.623,15.930,-9.277,-12.085
-0.172,-0.211,0.677,7.263,-15.991,-16.907
-0.186,-0.241,0.698,-1.099,-19.470,-16.663
-0.193,-0.205,0.748,-16.907,-26.306,-11.169
-0.185,0.026,0.871,-17.639,-28.625,-7.629
-0.223,0.087,0.959,-4.761,-32.532,-4.822
-0.305,0.086,1.091,2.625,-31.433,-5.188
-0.293,0.058,1.106,10.803,-25.940,-4.700
-0.246,0.021,1.105,9.399,-23.499,-3.845
-0.262,0.001,1.154,-1.892,-18.188,-2.319
-0.256,0.048,1.182,-5.066,-14.038,-1.038
-0.228,0.097,1.154,-4.944,-8.728,-1.709
-0.199,0.117,1.087,-3.906,-7.690,-3.174
-0.203,0.079,1.061,1.282,-8.606,-6.104
-0.258,-0.030,1.092,2.808,-8.545,-5.310
-0.264,-0.049,1.067,3.906,-4.028,-0.244
-0.236,-0.062,0.920,3.052,-3.113,0.488
-0.239,-0.060,0.913,2.441,-7.446,-0.305
-0.276,-0.031,0.986,2.441,-8.789,0.488
-0.274,-0.023,1.004,1.709,-8.301,1.404
-0.238,-0.003,0.952,2.563,-6.287,3.723
-0.264,0.007,0.975,3.723,-8.179,4.089
-0.295,-0.007,1.024,3.418,-6.592,4.028
-0.261,-0.023,1.012,5.005,-4.578,5.005
-0.220,-0.009,0.980,5.188,-3.845,5.676
-0.185,0.042,0.956,2.258,-5.066,4.272
-0.219,0.055,1.008,-1.038,-7.629,1.709
-0.298,0.061,1.079,0.366,-5.981,1.404
-0.325,0.013,1.081,4.639,-2.136,0.488
-0.337,-0.088,1.076,7.385,-0.366,2.136
-0.328,-0.098,1.052,7.446,3.967,5.493
-0.313,-0.150,1.019,5.188,4.700,5.371
-0.251,-0.105,0.979,5.432,4.883,7.080
-0.156,0.020,0.903,9.094,4.089,11.475
-0.110,0.116,0.842,5.798,1.282,7.202
-0.161,0.048,0.883,3.418,-6.409,-0.305
-0.219,-0.028,0.917,7.874,-9.583,0.183
-0.259,-0.047,0.966,11.719,-14.343,0.793
-0.357,-0.160,1.080,6.775,-11.047,0.000
-0.342,-0.178,1.054,-4.150,-2.625,1.282
-0.223,-0.043,0.959,-5.249,-2.014,3.723
-0.176,0.067,0.934,-0.122,-6.592,5.554
-0.199,0.196,1.028,1.221,-6.470,2.625
-0.215,0.135,1.005,0.610,0.305,-4.456
-0.266,-0.022,0.975,3.174,0.366,-4.700
-0.275,-0.075,0.968,4.456,0.793,-3.357
-0.232,-0.103,0.913,2.380,0.305,-3.296
-0.235,-0.103,0.933,-1.587,-1.160,-3.784
-0.285,-0.101,1.031,-8.484,-2.014,-3.845
-0.294,-0.094,1.063,-8.423,-0.488,-2.502
-0.267,-0.065,1.047,-4.272,3.784,1.770
-0.185,-0.012,0.953,-1.892,3.357,2.808
-0.180,-0.005,0.951,0.916,-2.136,2.197
-0.207,-0.002,0.991,1.770,-4.333,1.770
-0.222,0.003,1.017,2.502,-3.845,1.465
-0.247,0.004,1.021,0.854,-1.404,0.793
-0.273,-0.046,1.031,-2.991,1.038,-0.671
-0.316,-0.151,1.066,-4.517,2.075,0.183
-0.310,-0.148,1.064,-7.629,6.409,5.127
-0.239,-0.052,0.981,-8.545,8.301,7.263
-0.215,0.001,0.957,-5.615,6.348,8.179
-0.179,0.050,0.966,-4.028,5.432,7.507
-0.148,0.086,0.928,-2.563,5.066,7.141
-0.175,0.113,0.943,-2.258,0.549,3.052
-0.201,0.110,0.971,-3.540,-0.916,-0.122
-0.220,0.094,0.981,-0.854,-1.526,-3.113
-0.245,0.034,1.000,1.221,-1.709,-3.296
-0.255,-0.002,1.007,4.395,0.000,-3.052
-0.261,-0.102,0.969,4.822,1.221,-2.319
-0.245,-0.118,0.937,2.014,1.709,0.977
-0.177,-0.033,0.877,-0.916,0.671,1.953
-0.157,0.026,0.875,-6.531,-4.211,0.122
-0.183,0.132,0.965,-5.981,-6.653,-1.343
-0.217,0.143,1.005,0.244,-6.897,-4.517
-0.296,0.043,1.054,3.113,-4.944,-5.676
-0.304,-0.014,1.036,11.841,-0.244,-3.113
-0.281,-0.043,0.992,15.259,0.793,-1.160
-0.254,-0.050,0.956,11.475,2.380,-2.563
-0.238,-0.081,0.923,7.751,1.404,-4.089
-0.245,-0.082,0.942,4.089,-1.221,-4.822
-0.240,-0.039,0.962,4.456,-1.343,-4.150
-0.239,-0.028,0.964,5.249,-1.221,-3.723
-0.255,-0.057,0.992,4.150,-1.526,-3.967
-0.242,-0.062,0.990,4.089,-1.160,-3.052
-0.212,-0.059,0.955,6.836,-1.892,0.061
-0.201,-0.042,0.949,5.737,-3.967,-0.122
-0.221,-0.055,0.972,-2.136,-5.127,-3.784
-0.262,-0.047,1.026,-2.686,-4.822,-3.845
-0.275,-0.045,1.047,2.014,-2.502,-1.953
-0.274,-0.078,1.045,4.333,-0.732,-0.671
-0.236,-0.075,0.999,3.662,2.441,0.427
-0.177,-0.059,0.901,0.977,1.282,-0.244
-0.184,-0.057,0.904,-3.296,-4.517,-1.526
-0.228,-0.047,0.951,-3.479,-6.714,-1.160
-0.257,-0.029,0.988,-4.456,-7.202,0.122
